Folder: concrete-mix-database/analysis_output

Note: analysis_output/ols_baseline.txt
OLS Regression Results                                 
========================================================================================
Dep. Variable:     compressive_strength_28d_mpa   R-squared:                       0.340
Model:                                      OLS   Adj. R-squared:                  0.338
Method:                           Least Squares   F-statistic:                     183.0
Date:                          Wed, 07 May 2025   Prob (F-statistic):          2.15e-157
Time:                                  09:15:30   Log-Likelihood:                -6851.3
No. Observations:                          1781   AIC:                         1.371e+04
Df Residuals:                              1775   BIC:                         1.375e+04
Df Model:                                     5                                         
Covariance Type:                      nonrobust                                         
========================================================================================
                           coef    std err          t      P>|t|      [0.025      0.975]
----------------------------------------------------------------------------------------
const                   24.6809      2.170     11.372      0.000      20.424      28.938
w_c_ratio              -16.0376      1.769     -9.066      0.000     -19.507     -12.568
scm_replacement_pct     -0.1138      0.027     -4.211      0.000      -0.167      -0.061
binder_content_kg_m3     0.0658      0.004     16.568      0.000       0.058       0.074
scm_type_GGBS            1.3218      0.858      1.540      0.124      -0.362       3.005
scm_type_None            0.4921      1.017      0.484      0.629      -1.503       2.487
==============================================================================
Omnibus:                      344.018   Durbin-Watson:                   0.756
Prob(Omnibus):                  0.000   Jarque-Bera (JB):              989.895
Skew:                           0.993   Prob(JB):                    1.11e-215
Kurtosis:                       6.066   Cond. No.                     3.91e+03
==============================================================================

Notes:
[1] Standard Errors assume that the covariance matrix of the errors is correctly specified.
[2] The condition number is large, 3.91e+03. This might indicate that there are
strong multicollinearity or other numerical problems.

Note: README.md
# Concrete Mix Database Web Application (Version 1 Prototype)

## Project Overview

This project is a Version 1 prototype of a web application designed to manage and explore data from a PostgreSQL database containing information about concrete materials, mix compositions, performance test results, and sustainability metrics. It provides functionalities for viewing, adding, searching, and filtering concrete mix data, with a focus on usability and data integrity.

## Technology Stack

*   **Backend Framework:** Python 3.x with Django 5.x
*   **Database:** PostgreSQL (connected via `psycopg2-binary`)
*   **Frontend:** Django Templates, Bootstrap 5
*   **Forms:** Django Forms with `django-crispy-forms` and `crispy-bootstrap5`
*   **Authentication:** `django-allauth` (handling email/password and Google Sign-In setup)
*   **Filtering:** `django-filter`

## Installation & Setup (Local Development - Windows)

Follow these steps to set up the project locally:

1.  **Prerequisites:**
    *   Python 3.x installed (ensure it's added to your PATH).
    *   PostgreSQL installed and running.
    *   pgAdmin 4 or another PostgreSQL client installed.
    *   Git installed (optional, but recommended for version control).

2.  **Database Setup:**
    *   Using pgAdmin 4 or `psql`, create a new PostgreSQL database named `concrete_mix_db`.
    *   Ensure you have a user (e.g., the default `postgres` user) with a password that can access this database. The default credentials used in `settings.py` are:
        *   User: `postgres`
        *   Password: `264537`
        *   Host: `localhost`
        *   Port: `5432`
    *   Make sure the required tables (`bibliographicreference`, `concretemix`, `material`, etc.) already exist in the `concrete_mix_db` database with the correct schema, as this project uses `managed = False` for these models.

3.  **Clone the Repository (if applicable):**
    ```bash
    git clone <repository_url>
    cd concrete_mix_project
    ```
    If you don't have a repository, create a project folder manually (`mkdir concrete_mix_project` and `cd concrete_mix_project`).

4.  **Create and Activate Virtual Environment:**
    ```bash
    # Create the environment
    python -m venv venv

    # Activate the environment (Windows CMD/PowerShell)
    venv\Scripts\activate
    ```

5.  **Install Required Packages:**
    ```bash
    pip install django psycopg2-binary django-crispy-forms crispy-bootstrap5 django-allauth djangorestframework django-filter
    ```
    *(Note: `djangorestframework` is installed but not actively used in V1 UI yet).*

6.  **Configure Settings:**
    *   Open `concrete_mix_project/settings.py`.
    *   Verify the `DATABASES['default']` section matches your PostgreSQL connection details (NAME, USER, PASSWORD, HOST, PORT). **Important:** For production, never hardcode passwords; use environment variables or a secrets management system.

7.  **Apply Django Migrations:**
    *   This command creates the database tables required by Djan

File: cleaned_mixes.csv
dataset,mix_id,mix_code,scm_primary_type,cement_kg_m3,binder_content_kg_m3,scm_replacement_pct,w_c_ratio,w_b_ratio,water_kg_m3,compressive_strength_28d_mpa,total_coarse_agg_kg_m3,total_fine_agg_kg_m3,total_agg_kg_m3,fine_to_coarse_ratio,binder_to_aggregate_ratio
DS1,6.0,DS1-1,GGBS,540.00,540.00,0.0,0.30,0.3,162.00,79.99,1040.00,676.00,1716.00,0.65,0.314685
DS1,23.0,DS1-18,GGBS,342.00,380.00,10.0,0.67,0.60,228.00,,932.00,670.00,1602.00,0.718884,0.237203
DS2,7439.0,DS2-63,None,528,528,0.0,0.35,,184.80,47.1,0,0,0,,
DS2,7419.0,DS2-43,None,485,485,0.0,0.34,,164.90,65.4,0,0,0,,
DS3,4375.0,DS3-45,Fly Ash,390,390,0.0,,,207,33.09,1174,710,1884,0.60477,0.207006
DS2,7489.0,DS2-113,None,400,400,0.0,0.4,,160.0,65.3,0,0,0,,
DS1,64.0,DS1-59,GGBS,304.00,380.00,20.0,0.75,0.60,228.00,,932.00,670.00,1602.00,0.718884,0.237203
DS2,7546.0,DS2-170,None,537,537,0.0,0.41,,220.17,52.6,0,0,0,,
DS1,93.0,DS1-88,GGBS,286.30,487.20,41.2356,0.51,0.30,144.70,,1004.60,803.70,1808.30,0.80002,0.269424
DS3,4417.0,DS3-87,Fly Ash,436,436,0.0,,,244,,1143,616,1759,0.538933,0.247868
DS2,7579.0,DS2-203,None,380,380,0.0,0.42,,159.60,45.4,0,0,0,,
DS3,4450.0,DS3-120,Fly Ash,380,380,0.0,,,201,,1003,710,1713,0.707876,0.221833
DS2,7639.0,DS2-263,None,380,380,0.0,0.44,,167.20,63.5,0,0,0,,
DS1,136.0,DS1-131,GGBS,323.70,606.50,46.6282,0.57,0.30,183.80,74.70,942.70,659.90,1602.60,0.700011,0.378448
DS3,4471.0,DS3-141,Fly Ash,380,380,0.0,,,171,39.2,787,710,1497,0.90216,0.253841
DS1,162.0,DS1-157,GGBS,286.30,487.20,41.2356,0.51,0.30,144.70,,1004.60,803.70,1808.30,0.80002,0.269424
DS2,7739.0,DS2-363,None,340,340,0.0,0.47,,159.80,44,0,0,0,,
DS2,7720.0,DS2-344,None,325,325,0.0,0.46,,149.50,54.3,0,0,0,,
DS3,4515.0,DS3-185,Fly Ash,380,380,0.0,,,209,24.41,943,750,1693,0.795334,0.224454
DS2,7794.0,DS2-418,None,372,372,0.0,0.5,,186.0,28.3,0,0,0,,
DS1,206.0,DS1-201,Fly Ash,190.68,316.08,39.6735,0.85,0.51,162.14,,1090.00,804.01,1894.01,0.737624,0.166884
DS2,7853.0,DS2-477,None,450,450,0.0,0.5,,225.0,41.5,0,0,0,,
DS1,237.0,DS1-232,GGBS,213.72,336.28,36.4458,0.85,0.54,181.71,45.71,1065.80,785.38,1851.18,0.736892,0.181657
DS3,4555.0,DS3-225,GGBS,187.5,375.0,50.0,,,142.5,,865,880,1745,1.01734,0.2149
DS2,7879.0,DS2-503,None,350,350,0.0,0.514,,179.900,45.2,0,0,0,,
DS3,4581.0,DS3-251,Fly Ash,375,375,0.0,,,142.5,33.45,865.00,880,1745.00,1.01734,0.2149
DS2,7952.0,DS2-576,None,436,436,0.0,0.55,,239.80,24.79,0,0,0,,
DS1,280.0,DS1-275,Fly Ash,251.37,369.64,31.996,0.75,0.51,188.45,,1028.40,757.73,1786.13,0.736805,0.20695
DS4,8155.0,DS4-45,Fly Ash,350,500,30.0,,0.38,190,20.9,820.8,820.8,1641.6,1.0,0.304581
DS2,7996.0,DS2-620,None,339,339,0.0,0.58,,196.62,26.5,0,0,0,,
DS2,8039.0,DS2-663,None,280,280,0.0,0.63,,176.40,42.5,0,0,0,,
DS2,8078.0,DS2-702,None,262,262,0.0,0.67,,175.54,15.4,0,0,0,,
DS1,332.0,DS1-327,Fly Ash,252.31,351.06,28.1291,0.58,0.42,146.25,50.60,987.76,889.01,1876.77,0.900026,0.187055
DS2,8098.0,DS2-722,None,263,263,0.0,0.7,,184.1,18.1,0,0,0,,
DS1,378.0,DS1-373,Fly Ash,218.85,342.98,36.1916,0.72,0.46,158.49,,1078.70,794.91,1873.61,0.736915,0.183058
DS1,412.0,DS1-407,Fly Ash,165.00,308.59,46.531,0.99,0.53,163.81,,1005.60,900.90,1906.50,0.895883,0.161862
DS1,455.0,DS1-450,Fly Ash,172.38,358.36,51.8975,0.91,0.44,156.76,,1006.30,856.40,1862.70,0.851038,0.192387
DS1,499.0,DS1-494,Fly Ash,387.00,501.00,22.7545,0.41,0.31,157.00,,938.00,845.00,1783.00,0.900853,0.280987
DS1,543.0,DS1-538,GGBS,480.00,480.00,0.0,0.40,0.40,192.00,43.94,936.20,712.20,1648.40,0.760735,0.291191
DS1,587.0,DS1-582,GGBS,181.90,454.70,59.9956,1.02,0.41,185.70,,1012.40,714.30,1726.70,0.705551,0.263335
DS1,630.0,DS1-625,GGBS,307.00,307.00,0.0,0.63,0.63,193.00,27.53,968.00,812.00,1780.00,0.838843,0.172472
DS1,674.0,DS1-669,GGBS,153.00,255.00,40.0,1.25,0.75,192.00,,888.00,943.10,1831.10,1.06205,0.139261
DS1,718.0,DS1-713,GGBS,192.00,480.00,60.0,1.00,0.40,192.00,,929.80,716.10,1645.90,0.770166,0.291634
DS1,761.0,DS1-756,GGBS,540.00,540.00,0.0,0.32,0.32,173.00,,1125.00,613.00,1738.00,0.544889,0.310702
DS1,805.0,DS1-800,GGBS,540.00,540.00,0.0,0.32,0.32,173.00,,1125.00,613.00,1738.00,0.544889,0.310702
DS1,849.0,DS1-844,GGBS,142.00,439.00,67.6538,1.23,0.40,174.00,44.61,883.00,785.00,1668.00,0.889015,0.263189
DS1,893.0,DS1-888,Fly Ash,326.00,464.00,29.7414,0.61,0.43,199.00,40.68,801.00,792.00,1593.00,0.988764,0.291274
DS1,936.0,DS1-931,GGBS,159.00,529.00,69.9433,1.26,0.38,201.00,30.88,848.00,669.00,1517.00,0.788915,0.348715
DS1,980.0,DS1-975,Fly Ash,148.10,330.20,55.1484,1.22,0.55,181.40,15.53,838.90,884.30,1723.20,1.05412,0.19162
DS1,1023.0,DS1-1018,Fly Ash,313.80,426.40,26.4071,0.54,0.40,169.90,38.46,925.30,782.90,1708.20,0.846104,0.249619
DS4,8182.0,DS4-72,Fly Ash,287.7,482.1,40.3236,,0.36,174.5,31.9,842.6,842.6,1685.2,1.0,0.286079
DS3,4718.0,DS3-388,Fly Ash,360,360,0.0,,,180,,906,780,1686,0.860927,0.213523
DS5,13101.0,DS5-671,GGBS,215,280,23.2143,,,164,43.056,0,0,0,,
DS5,13115.0,DS5-685,None,300,300,0.0,,,180,39.008,0,0,0,,
DS5,13127.0,DS5-697,Fly Ash,378,420,10.0,,,168,60.989,0,0,0,,
DS3,4843.0,DS3-513,Fly Ash,425,425,0.0,,,185,51.15,982,696,1678,0.708758,0.253278
DS3,4872.0,DS3-542,Fly Ash,300,300,0.0,,,195,,918.1,828.4,1746.5,0.902298,0.171772
DS3,4916.0,DS3-586,Fly Ash,300,300,0.0,,,160,,818.2,951.3,1769.5,1.16267,0.169539
DS3,4955.0,DS3-625,Fly Ash,321,536,40.1119,,,241,,1011,619,1630,0.612265,0.328834
DS3,4999.0,DS3-669,Fly Ash,351,585,40.0,,,204.88,,1355.94,453.66,1809.60,0.334572,0.323276
DS3,5040.0,DS3-710,Fly Ash,234,585,60.0,,,204.88,18.84,1350.89,453.66,1804.55,0.335823,0.324181
DS3,5080.0,DS3-750,Fly Ash,250,250,0.0,,,155,18.99,1035,785,1820,0.758454,0.137363
DS3,5124.0,DS3-794,Fly Ash,537,537,0.0,,,220,38.04,920,693,1613,0.753261,0.33292
DS3,5164.0,DS3-834,Fly Ash,537,537,0.0,,,220,,920,693,1613,0.753261,0.33292
DS3,5208.0,DS3-878,Fly Ash,537,537,0.0,,,220,,920,693,1613,0.753261,0.33292
DS3,5249.0,DS3-919,Fly Ash,350,350,0.0,,,168,,874.82,299.72,1174.54,0.342608,0.297989
DS3,5288.0,DS3-958,Fly Ash,520,520,0.0,,,176.8,,904.8,577.2,1482.0,0.637931,0.350877
DS3,5332.0,DS3-1002,Fly Ash,380,380,0.0,,,205.2,38.87,864.7,934,1798.7,1.08014,0.211264
DS3,5371.0,DS3-1041,Fly Ash,340,340,0.0,,,159.8,42.37,1258,556,1814,0.441971,0.187431
DS6,23217.0,1,Fly Ash,410,410,0.0,0.55,,225.50,45.3,1044,0,1044,0.0,0.39272
DS3,5435.0,DS3-1105,Fly Ash,275,275,0.0,,,180,,1260,625,1885,0.496032,0.145889
DS3,5479.0,DS3-1149,Fly Ash,245,350,30.0,,,160,,1280,575,1855,0.449219,0.188679
DS3,5498.0,DS3-1168,Fly Ash,300,430,30.2326,,,160,,1262,514,1776,0.40729,0.242117
DS3,5542.0,DS3-1212,Fly Ash,280,400,30.0,,,160,,1282,523,1805,0.407956,0.221607
DS3,5562.0,DS3-1232,Fly Ash,192,295,34.9153,,,192,20.67,934,759,1693,0.812634,0.174247
DS3,5606.0,DS3-1276,Fly Ash,148,296,50.0,,,192,,884,764,1648,0.864253,0.179612
DS3,5629.0,DS3-1299,Fly Ash,280,350,20.0,,,192.5,,1015,800,1815,0.788177,0.192837
DS6,23298.0,3,Fly Ash,307.5,410.0,25.0,0.55,,169.125,43.8,1044,0,1044,0.0,0.39272
DS3,5697.0,DS3-1367,Silica Fume,351,390,10.0,,,195,52.45,1078,664,1742,0.615955,0.223881
DS6,23322.0,5,None,400,400,0.0,0.46,,184.00,66.8,1108,0,1108,0.0,0.361011
DS3,5765.0,DS3-1435,Fly Ash,330,330,0.0,,,165,33.81,1052,715,1767,0.679658,0.186757
DS3,5788.0,DS3-1458,Fly Ash,350,350,0.0,,,180,,1857,612,2469,0.329564,0.141758
DS3,5832.0,DS3-1502,GGBS,117.7,392.1,69.9821,,,156.9,40.98,1053.1,741.6,1794.7,0.704207,0.218477
DS3,5860.0,DS3-1530,Fly Ash,410,410,0.0,,,225,,1048,642,1690,0.612595,0.242604
DS6,23361.0,9,Fly Ash,253.5,390.0,35.0,0.5,,126.75,42.1877,1107,0,1107,0.0,0.352304
DS3,5929.0,DS3-1599,Fly Ash,384.38,512.51,25.0005,,,225,,987,582,1569,0.589666,0.326648
DS3,5953.0,DS3-1623,Fly Ash,375,500,25.0,,,160,,1022,685,1707,0.670254,0.292912
DS3,5997.0,DS3-1667,Fly Ash,410,410,0.0,,,205,,1075,662,1737,0.615814,0.236039
DS3,6025.0,DS3-1695,Fly Ash,380,380,0.0,,,182.4,46.89,1006,800,1806,0.795229,0.21041
DS6,23396.0,12,None,355,355,0.0,0.51,,181.05,25,1245,0,1245,0.0,0.285141
DS3,6097.0,DS3-1767,Fly Ash,266.5,410.0,35.0,,,225,31.44,1030,598,1628,0.580583,0.251843
DS6,23423.0,13,None,355,355,0.0,0.51,,181.05,38.2439,1245,0,1245,0.0,0.285141
DS3,6164.0,DS3-1834,Fly Ash,400,400,0.0,,,192,,1100,705,1805,0.640909,0.221607
DS3,6190.0,DS3-1860,Fly Ash,360,360,0.0,,,234,,1100,705,1805,0.640909,0.199446
DS3,6234.0,DS3-1904,Fly Ash,288.6,288.6,0.0,,,202,27.66,953.6,727.1,1680.7,0.762479,0.171714
DS3,6261.0,DS3-1931,Fly Ash,500,500,0.0,,,180,,1135.4,486.6,1622.0,0.428571,0.308261
DS6,23457.0,16,Fly Ash,191.8,295.1,35.0051,0.65,,124.670,21.6,1039,0,1039,0.0,0.284023
DS3,6332.0,DS3-2002,Fly Ash,500,500,0.0,,,180,,1221.9,523.7,1745.6,0.428595,0.286434
DS6,23477.0,19,Fly Ash,400,530,24.5283,0.33,,132.00,,760,0,760,0.0,0.697368
DS3,6402.0,DS3-2072,Silica Fume,454.5,500.0,9.1,,,113,,1426.3,611.8,2038.1,0.428942,0.245327
DS3,6426.0,DS3-2096,Fly Ash,343,491.0,30.1426,,,206,33.22,969,762,1731,0.786378,0.283651
DS3,6470.0,DS3-2140,Fly Ash,389.67,389.67,0.0,,,185.09,,1246.74,526.69,1773.43,0.422454,0.219727
DS3,6492.0,DS3-2162,Fly Ash,251.2,314.0,20.0,,,157,24,898,933,1831,1.03898,0.171491
DS3,6536.0,DS3-2206,GGBS,140,350,60.0,,,140,,1038,725,1763,0.698459,0.198525
DS3,6557.0,DS3-2227,Fly Ash,460,460,0.0,,,165,57.88,1260,575,1835,0.456349,0.250681
DS3,6601.0,DS3-2271,Fly Ash,309,309,0.0,,,170,25.45,1056,674,1730,0.638258,0.178613
DS3,6623.0,DS3-2293,GGBS,243,486,50.0,,,170,,960,612,1572,0.6375,0.30916
DS5,13269.0,DS5-839,GGBS,300,500,40.0,,,150,69.598,0,0,0,,
DS5,13300.0,DS5-870,GGBS,137,457,70.0219,,,160,70.689,0,0,0,,
DS5,13342.0,DS5-912,GGBS,83,236,64.8305,,,153,24.371,0,0,0,,
DS5,13385.0,DS5-955,None,344.8,344.8,0.0,,,137.9,81.512,0,0,0,,
DS6,23604.0,26,None,275,275,0.0,0.65,,178.75,49.3,919,0,919,0.0,0.299238
DS6,23639.0,28,Fly Ash,350,450,22.2222,0.33,,115.50,56.875,986,0,986,0.0,0.456389
DS6,23674.0,30,GGBS,265,530,50.0,0.36,,95.40,26.35,1240,0,1240,0.0,0.427419
DS5,13441.0,DS5-1012,Fly Ash,271,319,15.047,,,180,41.468,0,0,0,,
DS5,13485.0,DS5-1056,None,400,400,0.0,,,146.4,75.175,0,0,0,,
DS5,13529.0,DS5-1100,Fly Ash,181,431,58.0046,,,116,45.5,0,0,0,,
DS5,13572.0,DS5-1143,Fly Ash,164,274,40.146,,,175,15.125,0,0,0,,
DS5,13615.0,DS5-1186,None,547,547,0.0,,,125.8,103.305,0,0,0,,
DS5,13656.0,DS5-1227,GGBS,354,590,40.0,,,118,111.55,0,0,0,,
DS5,13662.0,DS5-1233,Fly Ash,210,300,30.0,,,180,39.1,0,0,0,,
DS5,13663.0,DS5-1234,Natural Pozzolan,270,300,10.0,,,180,32.9,0,0,0,,
DS5,13664.0,DS5-1235,Natural Pozzolan,210,300,30.0,,,180,26.2,0,0,0,,
DS5,13665.0,DS5-1236,None,300,300,0.0,,,180,40.9,0,0,0,,
DS5,13666.0,DS5-1237,Fly Ash,270,300,10.0,,,180,42.4,0,0,0,,
DS5,13667.0,DS5-1238,Fly Ash,210,300,30.0,,,180,37.5,0,0,0,,
DS5,13668.0,DS5-1239,Fly Ash,270,300,10.0,,,180,41.7,0,0,0,,
DS5,13669.0,DS5-1240,Fly Ash,210,300,30.0,,,180,40.2,0,0,0,,
DS5,13670.0,DS5-1241,Natural Pozzolan,270,300,10.0,,,180,38.7,0,0,0,,
DS5,13671.0,DS5-1242,Natural Pozzolan,210,300,30.0,,,180,29.9,0,0,0,,
DS5,13672.0,DS5-1243,None,368,368,0.0,,,115,60.75,0,0,0,,
DS5,13673.0,DS5-1244,Fly Ash,231,387,40.3101,,,119,69.125,0,0,0,,
DS5,13674.0,DS5-1245,Fly Ash,195,394,50.5076,,,120,55,0,0,0,,
DS5,13675.0,DS5-1246,Fly Ash,156,397,60.7053,,,121,54.625,0,0,0,,
DS5,13676.0,DS5-1247,Fly Ash,229,383,40.2089,,,115,55.75,0,0,0,,
DS5,13677.0,DS5-1248,Fly Ash,193,390,50.5128,,,114,46,0,0,0,,
DS5,13678.0,DS5-1249,Fly Ash,155,392,60.4592,,,116,35.75,0,0,0,,
DS5,13679.0,DS5-1250,Fly Ash,229,383,40.2089,,,113,57.875,0,0,0,,
DS5,13680.0,DS5-1251,Fly Ash,193,389,50.3856,,,116,52.75,0,0,0,,
DS5,13681.0,DS5-1252,Fly Ash,154,415,62.8916,,,117,50,0,0,0,,
DS5,13682.0,DS5-1253,None,356,356,0.0,,,107,42.125,0,0,0,,
DS5,13683.0,DS5-1254,Fly Ash,259,398,34.9246,,,133,59.25,0,0,0,,
DS5,13685.0,DS5-1256,GGBS,297,350,15.1429,,,175,51.74,0,0,0,,
DS5,13686.0,DS5-1257,GGBS,245,350,30.0,,,175,49.22,0,0,0,,
DS5,13687.0,DS5-1258,GGBS,174,348,50.0,,,174,41.26,0,0,0,,
DS5,13688.0,DS5-1259,GGBS,105,349,69.914,,,174,37.14,0,0,0,,
DS5,13689.0,DS5-1260,GGBS,52,347,85.0144,,,174,26.7,0,0,0,,
DS5,13690.0,DS5-1261,None,350,350,0.0,,,174,50.5,0,0,0,,
DS5,13691.0,DS5-1262,GGBS,174,348,50.0,,,174,43.67,0,0,0,,
DS5,13692.0,DS5-1263,GGBS,105,349,69.914,,,174,38.03,0,0,0,,
DS5,13693.0,DS5-1264,GGBS,52,347,85.0144,,,174,31.77,0,0,0,,
DS5,13694.0,DS5-1265,None,400,400,0.0,,,160,38.55,0,0,0,,
DS5,13695.0,DS5-1266,Fly Ash,200,400,50.0,,,160,38.55,0,0,0,,
DS5,12431.0,DS5-1,None,300,300,0.0,,,180,28.336,0,0,0,,
DS5,12432.0,DS5-2,Fly Ash,270,337.5,20.0,,,180,27.232,0,0,0,,
DS5,12433.0,DS5-3,None,300,300,0.0,,,180,36.524,0,0,0,,
DS5,12434.0,DS5-4,Fly Ash,270,337.5,20.0,,,180,35.144,0,0,0,,
DS5,12435.0,DS5-5,None,300,300,0.0,,,180,27.232,0,0,0,,
DS5,12689.0,DS5-259,None,240,240,0.0,,,168,35.42,0,0,0,,
DS5,12436.0,DS5-6,Fly Ash,270,337.5,20.0,,,180,27.14,0,0,0,,
DS5,12437.0,DS5-7,None,300,300,0.0,,,180,41.952,0,0,0,,
DS5,12438.0,DS5-8,None,300,300,0.0,,,180,36.892,0,0,0,,
DS5,12439.0,DS5-9,None,300,300,0.0,,,180,26.772,0,0,0,,
DS5,12440.0,DS5-10,None,270,270,0.0,,,180,34.868,0,0,0,,
DS5,12441.0,DS5-11,None,270,270,0.0,,,180,29.44,0,0,0,,
DS5,12442.0,DS5-12,None,270,270,0.0,,,180,25.484,0,0,0,,
DS5,12443.0,DS5-13,Fly Ash,270,300,10.0,,,180,34.684,0,0,0,,
DS5,13696.0,DS5-1267,Fly Ash,132,400,67.0,,,160,23.28,0,0,0,,
DS5,13697.0,DS5-1268,None,280,280,0.0,,,168,50.635,0,0,0,,
DS5,13698.0,DS5-1269,None,280,280,0.0,,,168,40.755,0,0,0,,
DS5,13699.0,DS5-1270,None,280,280,0.0,,,168,30.875,0,0,0,,
DS5,13700.0,DS5-1271,None,300,300,0.0,,,174,38,0,0,0,,
DS5,13701.0,DS5-1272,None,300,300,0.0,,,150,56.924,0,0,0,,
DS5,13702.0,DS5-1273,Limestone Powder,270,300,10.0,,,150,63.536,0,0,0,,
DS5,13703.0,DS5-1274,Limestone Powder,270,300,10.0,,,150,63.46,0,0,0,,
DS5,13704.0,DS5-1275,None,475,475,0.0,,,190,71.136,0,0,0,,
DS5,13706.0,DS5-1277,None,470,470,0.0,,,211.5,67.298,0,0,0,,
DS5,13708.0,DS5-1279,None,500,500,0.0,,,160,83.4,0,0,0,,
DS5,13710.0,DS5-1281,None,460,460,0.0,,,147.2,85.5,0,0,0,,
DS5,13712.0,DS5-1283,None,420,420,0.0,,,134.4,83.7,0,0,0,,
DS5,13714.0,DS5-1285,Fly Ash,352,440,20.0,,,140.8,85,0,0,0,,
DS5,13716.0,DS5-1287,Fly Ash,286,440,35.0,,,140.8,84,0,0,0,,
DS5,13718.0,DS5-1289,Fly Ash,294,420,30.0,,,134.4,84,0,0,0,,
DS5,13720.0,DS5-1291,Fly Ash,294,432.6,32.0388,,,138.432,86.3,0,0,0,,
DS5,13722.0,DS5-1293,Fly Ash,294,441,33.3333,,,141.12,102.3,0,0,0,,
DS5,13724.0,DS5-1295,Silica Fume,450,480,6.25,,,136,111,0,0,0,,
DS5,13726.0,DS5-1297,Silica Fume,450,480,6.25,,,175,97,0,0,0,,
DS5,13728.0,DS5-1299,Silica Fume,450,480,6.25,,,158,116,0,0,0,,
DS5,13730.0,DS5-1301,None,450,450,0.0,,,157,97,0,0,0,,
DS5,13732.0,DS5-1303,Silica Fume,450,480,6.25,,,156,97,0,0,0,,
DS5,13734.0,DS5-1305,None,450,450,0.0,,,171,63.584,0,0,0,,
DS5,13736.0,DS5-1307,Silica Fume,432,450,4.0,,,135,91.229,0,0,0,,
DS5,13738.0,DS5-1309,Silica Fume,460,500,8.0,,,150,106.894,0,0,0,,
DS5,13740.0,DS5-1311,Silica Fume,414,450,8.0,,,135,74.642,0,0,0,,
DS5,13742.0,DS5-1313,Silica Fume,414,450,8.0,,,135,96.758,0,0,0,,
DS5,13744.0,DS5-1315,Silica Fume,414,450,8.0,,,134.9,109.659,0,0,0,,
DS5,13746.0,DS5-1317,Silica Fume,480,500,4.0,,,150,110.58,0,0,0,,
DS5,13748.0,DS5-1319,Silica Fume,460,500,8.0,,,150,115.188,0,0,0,,
DS5,13750.0,DS5-1321,None,500,500,0.0,,,150,68.191,0,0,0,,
DS5,13752.0,DS5-1323,Fly Ash,420,490,14.2857,,,140,104.5,0,0,0,,
DS5,13754.0,DS5-1325,Fly Ash,400,515,22.3301,,,155,98.8,0,0,0,,
DS5,13756.0,DS5-1327,Fly Ash,470,625,24.8,,,148,,0,0,0,,
DS5,13759.0,DS5-1330,Silica Fume,449,484,7.2314,,,168,90.44,0,0,0,,
DS5,13761.0,DS5-1332,Silica Fume,450,495,9.09091,,,180,83.03,0,0,0,,
DS5,13763.0,DS5-1334,Silica Fume,360,396,9.09091,,,180,62.89,0,0,0,,
DS5,13766.0,DS5-1337,Silica Fume,514.3,591.4,13.0369,,,180,89.775,0,0,0,,
DS5,13768.0,DS5-1339,Silica Fume,514.3,565.7,9.08609,,,180,97.375,0,0,0,,
DS5,13770.0,DS5-1341,Silica Fume,514.3,565.7,9.08609,,,180,81.985,0,0,0,,
DS5,13772.0,DS5-1343,Fly Ash,385.7,694.4,44.4556,,,180,81.035,0,0,0,,
DS5,13774.0,DS5-1345,Fly Ash,340,420,19.0476,,,135,83.6,0,0,0,,
DS5,13776.0,DS5-1347,Silica Fume,450,495,9.09091,,,138.6,117.031,0,0,0,,
DS5,13778.0,DS5-1349,None,416,416,0.0,,,124.8,76.485,0,0,0,,
DS5,13780.0,DS5-1351,None,350,350,0.0,,,157.5,56.212,0,0,0,,
DS5,13782.0,DS5-1353,None,462,462,0.0,,,166.5,73.72,0,0,0,,
DS5,13784.0,DS5-1355,Silica Fume,455,485,6.18557,,,166.4,98.601,0,0,0,,
DS5,13786.0,DS5-1357,Silica Fume,435,478.5,9.09091,,,149.3,87.543,0,0,0,,
DS5,13788.0,DS5-1359,Silica Fume,435,478.5,9.09091,,,124,88.464,0,0,0,,
DS5,13790.0,DS5-1361,Silica Fume,450,495,9.09091,,,147.1,110.58,0,0,0,,
DS5,13792.0,DS5-1363,Silica Fume,450,495,9.09091,,,141.7,110.58,0,0,0,,
DS5,13794.0,DS5-1365,Silica Fume,450,495,9.09091,,,160.6,83.857,0,0,0,,
DS5,13796.0,DS5-1367,Silica Fume,450,495,9.09091,,,160.6,91.229,0,0,0,,
DS5,13798.0,DS5-1369,Silica Fume,450,495,9.09091,,,160.6,106.894,0,0,0,,
DS5,13800.0,DS5-1371,Silica Fume,450,495,9.09091,,,160.6,102.287,0,0,0,,
DS5,13802.0,DS5-1373,Silica Fume,450,495,9.09091,,,138.1,96.758,0,0,0,,
DS5,13804.0,DS5-1375,Silica Fume,450,495,9.09091,,,147.1,124.403,0,0,0,,
DS5,13806.0,DS5-1377,Silica Fume,450,495,9.09091,,,156.9,105.051,0,0,0,,
DS5,13808.0,DS5-1379,None,350,350,0.0,,,124,73.72,0,0,0,,
DS5,13810.0,DS5-1381,Silica Fume,450,495,9.09091,,,147.1,106.894,0,0,0,,
DS5,13812.0,DS5-1383,Silica Fume,450,495,9.09091,,,168.5,117.031,0,0,0,,
DS5,13814.0,DS5-1385,Silica Fume,450,495,9.09091,,,148.5,107.816,0,0,0,,
DS5,13816.0,DS5-1387,Silica Fume,450,495,9.09091,,,130.4,115.188,0,0,0,,
DS5,13818.0,DS5-1389,Silica Fume,450,495,9.09091,,,114.8,111.502,0,0,0,,
[...]
DS5,12677.0,DS5-247,GGBS,210,280,25.0,,,168,37.26,0,0,0,,
DS5,12681.0,DS5-251,GGBS,280,373,24.933,,,168,55.936,0,0,0,,
DS5,12685.0,DS5-255,GGBS,240,320,25.0,,,168,42.228,0,0,0,,
DS5,12690.0,DS5-260,None,370,370,0.0,,,168,57.285,0,0,0,,
DS5,12694.0,DS5-264,GGBS,240,320,25.0,,,168,50.753,0,0,0,,
DS5,12698.0,DS5-268,None,240,240,0.0,,,168,26.312,0,0,0,,
DS5,12702.0,DS5-272,GGBS,185,370,50.0,,,168,52.624,0,0,0,,
DS5,12737.0,DS5-307,None,240,240,0.0,,,168,27.6,0,0,0,,
DS5,12741.0,DS5-311,GGBS,280,373,24.933,,,168,55.844,0,0,0,,
DS5,12745.0,DS5-315,None,280,280,0.0,,,168,36.003,0,0,0,,
DS5,12749.0,DS5-319,GGBS,210,280,25.0,,,168,32.476,0,0,0,,
DS5,12753.0,DS5-323,GGBS,280,373,24.933,,,168,46.92,0,0,0,,
DS5,12757.0,DS5-327,Fly Ash,210,280,25.0,,,180,23.076,0,0,0,,
DS5,12761.0,DS5-331,Fly Ash,210,280,25.0,,,150,33.362,0,0,0,,
DS5,12765.0,DS5-335,Fly Ash,180,300,40.0,,,150,31.851,0,0,0,,
DS5,12769.0,DS5-339,Fly Ash,240,320,25.0,,,165,31.267,0,0,0,,
DS5,12773.0,DS5-343,Fly Ash,240,320,25.0,,,150,38.54,0,0,0,,
DS5,12777.0,DS5-347,Fly Ash,210,280,25.0,,,165,28.287,0,0,0,,
DS5,12781.0,DS5-351,None,240,240,0.0,,,180,23.48,0,0,0,,
DS5,12785.0,DS5-355,Fly Ash,210,315,33.3333,,,150,33.687,0,0,0,,
DS5,12789.0,DS5-359,Fly Ash,240,320,25.0,,,165,31.274,0,0,0,,
DS5,12793.0,DS5-363,Fly Ash,240,320,25.0,,,150,38.824,0,0,0,,
DS5,12797.0,DS5-367,GGBS,160,320,50.0,,,160,46.184,0,0,0,,
DS5,12832.0,DS5-402,GGBS,246,320,23.125,,,149,54.88,0,0,0,,
DS5,12836.0,DS5-406,GGBS,150,300,50.0,,,157,42.608,0,0,0,,
DS5,12840.0,DS5-410,GGBS,215,280,23.2143,,,164,41.378,0,0,0,,
DS5,12844.0,DS5-414,GGBS,246,320,23.125,,,156,56.641,0,0,0,,
DS5,12848.0,DS5-418,GGBS,150,300,50.0,,,140,53.084,0,0,0,,
DS5,12852.0,DS5-422,GGBS,215,280,23.2143,,,156,47.932,0,0,0,,
DS5,12856.0,DS5-426,GGBS,246,320,23.125,,,156,60.996,0,0,0,,
DS5,12860.0,DS5-430,None,300,300,0.0,,,165,49.128,0,0,0,,
DS5,12864.0,DS5-434,GGBS,140,280,50.0,,,160,44.804,0,0,0,,
DS5,12868.0,DS5-438,GGBS,160,320,50.0,,,136,61.456,0,0,0,,
DS5,12872.0,DS5-442,GGBS,231,300,23.0,,,154,52.624,0,0,0,,
DS5,12876.0,DS5-446,GGBS,140,280,50.0,,,160,37.996,0,0,0,,
DS5,12880.0,DS5-450,GGBS,160,320,50.0,,,152,56.212,0,0,0,,
DS5,12884.0,DS5-454,GGBS,231,300,23.0,,,161,56.948,0,0,0,,
DS5,12888.0,DS5-458,GGBS,140,280,50.0,,,143,47.932,0,0,0,,
DS5,12892.0,DS5-462,GGBS,160,320,50.0,,,152,57.684,0,0,0,,
DS5,12896.0,DS5-466,GGBS,231,300,23.0,,,161,54.004,0,0,0,,
DS5,12900.0,DS5-470,None,280,280,0.0,,,168,46.184,0,0,0,,
DS5,12904.0,DS5-474,None,320,320,0.0,,,160,56.999,0,0,0,,
DS5,12908.0,DS5-478,None,298,298,0.0,,,179,36.156,0,0,0,,
DS5,12912.0,DS5-482,Fly Ash,177,295,40.0,,,181,19.872,0,0,0,,
DS5,12916.0,DS5-486,None,257,257,0.0,,,180,26.588,0,0,0,,
DS5,12920.0,DS5-490,Fly Ash,181,402,54.9751,,,167,26.312,0,0,0,,
DS5,12923.0,DS5-493,None,290,290,0.0,,,217.5,16.1,0,0,0,,
DS5,12924.0,DS5-494,Natural Pozzolan,255,340,25.0,,,170,37.904,0,0,0,,
DS5,12925.0,DS5-495,Natural Pozzolan,240,320,25.0,,,192,30.084,0,0,0,,
DS5,12926.0,DS5-496,Natural Pozzolan,217.5,290.0,25.0,,,217.5,16.376,0,0,0,,
DS5,12927.0,DS5-497,Natural Pozzolan,255,340,25.0,,,170,39.376,0,0,0,,
DS5,12928.0,DS5-498,Natural Pozzolan,240,320,25.0,,,192,28.612,0,0,0,,
DS5,12929.0,DS5-499,Natural Pozzolan,217.5,290.0,25.0,,,217.5,17.572,0,0,0,,
DS5,12993.0,DS5-563,None,246,246,0.0,,,175,23.644,0,0,0,,
DS5,12994.0,DS5-564,None,284,284,0.0,,,170,29.348,0,0,0,,
DS5,12995.0,DS5-565,None,240,240,0.0,,,180,21.896,0,0,0,,
DS5,12996.0,DS5-566,None,241,241,0.0,,,180.75,29.348,0,0,0,,
DS5,12997.0,DS5-567,None,276,276,0.0,,,165.6,27.784,0,0,0,,
DS5,12998.0,DS5-568,None,244,244,0.0,,,183,39.56,0,0,0,,
DS5,12999.0,DS5-569,None,280,280,0.0,,,168,38.64,0,0,0,,
DS5,13000.0,DS5-570,None,241,241,0.0,,,180.75,26.956,0,0,0,,
DS5,13001.0,DS5-571,None,242,242,0.0,,,181.5,22.448,0,0,0,,
DS5,13002.0,DS5-572,None,240,240,0.0,,,180,26.864,0,0,0,,
DS5,13003.0,DS5-573,None,240,240,0.0,,,180,24.932,0,0,0,,
DS5,13004.0,DS5-574,None,242,242,0.0,,,181.5,27.508,0,0,0,,
DS5,13005.0,DS5-575,None,242,242,0.0,,,181.5,23.644,0,0,0,,
DS5,13006.0,DS5-576,None,238,238,0.0,,,178.5,24.564,0,0,0,,
DS5,13007.0,DS5-577,None,238,238,0.0,,,178.5,25.392,0,0,0,,
DS5,13008.0,DS5-578,None,240,240,0.0,,,180,31.832,0,0,0,,
DS5,13009.0,DS5-579,None,238,238,0.0,,,178.5,26.956,0,0,0,,
DS5,13010.0,DS5-580,None,244,244,0.0,,,183,28.796,0,0,0,,
DS5,13011.0,DS5-581,None,238,238,0.0,,,178.5,21.068,0,0,0,,
DS5,13012.0,DS5-582,None,241,241,0.0,,,180.75,28.704,0,0,0,,
DS5,13013.0,DS5-583,None,239,239,0.0,,,179.25,22.08,0,0,0,,
DS5,13014.0,DS5-584,None,239,239,0.0,,,179.25,30.176,0,0,0,,
DS5,13015.0,DS5-585,None,238,238,0.0,,,178.5,25.3,0,0,0,,
DS5,13016.0,DS5-586,None,238,238,0.0,,,178.5,22.54,0,0,0,,
DS5,13017.0,DS5-587,None,239,239,0.0,,,179.25,20.332,0,0,0,,
DS5,13018.0,DS5-588,None,238,238,0.0,,,178.5,26.588,0,0,0,,
DS5,13019.0,DS5-589,None,241,241,0.0,,,180.75,26.772,0,0,0,,
DS5,13020.0,DS5-590,None,240,240,0.0,,,180,26.735,0,0,0,,
DS5,13021.0,DS5-591,None,240,240,0.0,,,180,23.074,0,0,0,,
DS5,13022.0,DS5-592,None,238,238,0.0,,,178.5,23.184,0,0,0,,
DS5,13023.0,DS5-593,None,241,241,0.0,,,180.75,23,0,0,0,,
DS5,13024.0,DS5-594,None,240,240,0.0,,,180,25.024,0,0,0,,
DS5,13025.0,DS5-595,None,241,241,0.0,,,180.75,18.768,0,0,0,,
DS5,13026.0,DS5-596,None,242,242,0.0,,,181.5,29.532,0,0,0,,
DS5,13027.0,DS5-597,None,238,238,0.0,,,178.5,24.932,0,0,0,,
DS5,13028.0,DS5-598,None,243,243,0.0,,,182.25,25.668,0,0,0,,
DS5,13029.0,DS5-599,None,242,242,0.0,,,181.5,23.368,0,0,0,,
DS5,13030.0,DS5-600,None,240,240,0.0,,,180,26.22,0,0,0,,
DS5,13031.0,DS5-601,None,239,239,0.0,,,179.25,22.724,0,0,0,,
DS5,13032.0,DS5-602,None,300,300,0.0,,,162,36.156,0,0,0,,
DS5,13033.0,DS5-603,Fly Ash,240,300,20.0,,,162,33.488,0,0,0,,
DS5,13034.0,DS5-604,None,300,300,0.0,,,160,50.048,0,0,0,,
DS5,13035.0,DS5-605,Fly Ash,240,300,20.0,,,160,45.08,0,0,0,,
DS5,13036.0,DS5-606,None,380,380,0.0,,,125,58.144,0,0,0,,
DS5,13037.0,DS5-607,None,266,380,30.0,,,125,68.172,0,0,0,,
DS5,13038.0,DS5-608,None,245,350,30.0,,,133,54.556,0,0,0,,
DS5,13039.0,DS5-609,None,294,420,30.0,,,155.8,64.216,0,0,0,,
DS5,13040.0,DS5-610,None,300,300,0.0,,,150,56.304,0,0,0,,
DS5,13041.0,DS5-611,Fly Ash,240,300,20.0,,,150,47.564,0,0,0,,
DS5,13042.0,DS5-612,None,300,300,0.0,,,150,56.856,0,0,0,,
DS5,13043.0,DS5-613,Fly Ash,240,300,20.0,,,150,50.416,0,0,0,,
DS5,13044.0,DS5-614,None,360,360,0.0,,,180,44.068,0,0,0,,
DS5,13045.0,DS5-615,None,300,300,0.0,,,180,37.352,0,0,0,,
DS5,13046.0,DS5-616,None,240,240,0.0,,,180,26.036,0,0,0,,
DS5,13047.0,DS5-617,Natural Pozzolan,320,400,20.0,,,180,44.896,0,0,0,,
DS5,13048.0,DS5-618,Natural Pozzolan,270,337.5,20.0,,,180,33.81,0,0,0,,
DS5,13049.0,DS5-619,Natural Pozzolan,240,300,20.0,,,180,30.36,0,0,0,,
DS5,13050.0,DS5-620,None,360,360,0.0,,,180,43.424,0,0,0,,
DS5,13051.0,DS5-621,None,300,300,0.0,,,180,33.12,0,0,0,,
DS5,13052.0,DS5-622,None,240,240,0.0,,,180,23.552,0,0,0,,
DS5,13053.0,DS5-623,Natural Pozzolan,320,400,20.0,,,180,43.7,0,0,0,,
DS5,13054.0,DS5-624,Natural Pozzolan,270,337.5,20.0,,,180,32.292,0,0,0,,
DS5,13055.0,DS5-625,Natural Pozzolan,240,300,20.0,,,180,29.44,0,0,0,,
DS5,13056.0,DS5-626,None,360,360,0.0,,,180,42.872,0,0,0,,
DS5,13057.0,DS5-627,None,300,300,0.0,,,180,33.948,0,0,0,,
DS5,13058.0,DS5-628,None,240,240,0.0,,,180,21.804,0,0,0,,
DS5,13059.0,DS5-629,Natural Pozzolan,320,400,20.0,,,180,40.204,0,0,0,,
DS5,13060.0,DS5-630,Natural Pozzolan,270,337.5,20.0,,,180,30.59,0,0,0,,
DS5,13061.0,DS5-631,Natural Pozzolan,240,300,20.0,,,180,22.724,0,0,0,,
DS5,13063.0,DS5-633,Fly Ash,240,300,20.0,,,150,46.92,0,0,0,,
DS5,13064.0,DS5-634,Fly Ash,215,380,43.4211,,,160,34.316,0,0,0,,
DS5,13065.0,DS5-635,Fly Ash,240,380,36.8421,,,160,33.856,0,0,0,,
DS5,13066.0,DS5-636,None,320,320,0.0,,,160,54.436,0,0,0,,
DS5,13067.0,DS5-637,None,320,320,0.0,,,160,58.954,0,0,0,,
DS5,13068.0,DS5-638,None,320,320,0.0,,,160,53.618,0,0,0,,
DS5,13069.0,DS5-639,None,320,320,0.0,,,160,52.1,0,0,0,,
DS5,13070.0,DS5-640,None,320,320,0.0,,,160,51.713,0,0,0,,
DS5,13071.0,DS5-641,None,320,320,0.0,,,160,46.819,0,0,0,,
DS5,13072.0,DS5-642,None,320,320,0.0,,,160,55.844,0,0,0,,
DS5,13073.0,DS5-643,None,300,300,0.0,,,165,46.644,0,0,0,,
DS5,13074.0,DS5-644,None,280,280,0.0,,,168,43.24,0,0,0,,
DS5,13075.0,DS5-645,None,320,320,0.0,,,160,59.524,0,0,0,,
DS5,13076.0,DS5-646,None,300,300,0.0,,,165,49.312,0,0,0,,
DS5,13077.0,DS5-647,None,280,280,0.0,,,168,43.148,0,0,0,,
DS5,13078.0,DS5-648,GGBS,160,320,50.0,,,152,58.052,0,0,0,,
DS5,13079.0,DS5-649,GGBS,150,300,50.0,,,157,48.208,0,0,0,,
DS5,13080.0,DS5-650,GGBS,140,280,50.0,,,160,44.988,0,0,0,,
DS5,13081.0,DS5-651,GGBS,246,320,23.125,,,156,58.052,0,0,0,,
DS5,13082.0,DS5-652,GGBS,231,300,23.0,,,161,52.256,0,0,0,,